Filename	10172024_PEGDA_PEGMEA_6,42_Aerosil380_20_LITFSI-b
Instrument name	DMA0850-00515
Operator	
rundate	10/7/2024
Sample name	mechanical test - PEGDA:PEGMEA 6p42 aer380 20percent LITFSI-b
Geometry name	Compression Clamp
Procedure name	DMA Conditioning Preload
	DMA Conditioning Temperature
	Strain Ramp Test
proceduresegments	Strain Ramp Test
[step]
Strain Ramp - 1
Step time	Stress	Strain	Temperature	Force	Displacement
min	MPa	%	°C	N	µm
0.01	1.54883e-4	0.0551770	30.86	5.89950e-3	0.702586
0.03	4.25994e-4	0.186018	30.86	0.0162261	2.36863
0.04	7.13289e-4	0.316877	30.87	0.0271692	4.03489
0.06	1.02023e-3	0.447737	30.87	0.0388607	5.70117
0.08	1.34141e-3	0.578604	30.87	0.0510943	7.36754
0.09	1.67823e-3	0.709460	30.88	0.0639239	9.03376
0.11	2.02875e-3	0.840325	30.88	0.0772750	10.7001
0.13	2.39514e-3	0.971185	30.88	0.0912308	12.3664
0.14	2.77777e-3	1.10204	30.89	0.105805	14.0326
0.16	3.17553e-3	1.23290	30.89	0.120956	15.6989
0.18	3.58501e-3	1.36377	30.89	0.136553	17.3653
0.19	4.00037e-3	1.49464	30.89	0.152374	19.0317
0.21	4.42901e-3	1.62550	30.90	0.168701	20.6980
0.23	4.87014e-3	1.75637	30.90	0.185503	22.3643
0.24	5.32358e-3	1.88723	30.90	0.202775	24.0307
0.26	5.78818e-3	2.01809	30.91	0.220472	25.6969
0.28	6.26802e-3	2.14895	30.91	0.238749	27.3632
0.29	6.76297e-3	2.27982	30.91	0.257601	29.0296
0.31	7.26991e-3	2.41068	30.92	0.276911	30.6959
0.33	7.79224e-3	2.54154	30.92	0.296806	32.3622
0.34	8.32050e-3	2.67241	30.92	0.316928	34.0286
0.36	8.85721e-3	2.80328	30.93	0.337371	35.6950
0.38	9.40908e-3	2.93414	30.93	0.358392	37.3612
0.39	9.96795e-3	3.06500	30.94	0.379679	39.0275
0.41	0.0105354	3.19588	30.94	0.401294	40.6941
0.43	0.0111004	3.32674	30.94	0.422814	42.3604
0.44	0.0116792	3.45760	30.95	0.444860	44.0266
0.46	0.0122686	3.58847	30.95	0.467312	45.6931
0.48	0.0128655	3.71934	30.95	0.490047	47.3594
0.49	0.0134740	3.85020	30.96	0.513226	49.0258
0.51	0.0140830	3.98106	30.96	0.536422	50.6921
0.53	0.0147021	4.11194	30.97	0.560002	52.3586
0.54	0.0153240	4.24281	30.97	0.583692	54.0250
0.56	0.0159585	4.37366	30.97	0.607861	55.6912
0.58	0.0166135	4.50453	30.98	0.632806	57.3575
0.59	0.0172707	4.63540	30.98	0.657841	59.0239
0.61	0.0179415	4.76626	30.98	0.683391	60.6902
0.63	0.0186115	4.89714	30.99	0.708911	62.3568
0.64	0.0192983	5.02799	30.99	0.735072	64.0230
0.66	0.0199971	5.15885	30.99	0.761690	65.6892
0.68	0.0207023	5.28973	31.00	0.788551	67.3557
0.69	0.0214231	5.42060	31.00	0.816007	69.0221
0.71	0.0221501	5.55146	31.01	0.843696	70.6884
0.73	0.0228947	5.68231	31.01	0.872057	72.3546
0.74	0.0236480	5.81319	31.01	0.900753	74.0211
0.76	0.0244108	5.94404	31.02	0.929805	75.6873
0.78	0.0251885	6.07490	31.02	0.959429	77.3536
0.79	0.0259719	6.20579	31.02	0.989268	79.0202
0.81	0.0267756	6.33663	31.03	1.01988	80.6862
0.83	0.0275906	6.46750	31.03	1.05092	82.3526
0.84	0.0284214	6.59836	31.04	1.08257	84.0190
0.86	0.0292610	6.72923	31.04	1.11455	85.6853
0.88	0.0301097	6.86009	31.04	1.14688	87.3516
0.89	0.0309796	6.99094	31.04	1.18001	89.0178
0.91	0.0318562	7.12181	31.05	1.21340	90.6841
0.93	0.0327484	7.25268	31.05	1.24739	92.3506
0.94	0.0336459	7.38355	31.05	1.28157	94.0169
0.96	0.0345626	7.51440	31.06	1.31649	95.6831
0.98	0.0355003	7.64524	31.06	1.35221	97.3492
0.99	0.0364485	7.77611	31.06	1.38832	99.0156
1.01	0.0374120	7.90699	31.07	1.42502	100.682
1.03	0.0383847	8.03785	31.07	1.46207	102.348
1.04	0.0393721	8.16871	31.07	1.49968	104.015
1.06	0.0403766	8.29956	31.08	1.53794	105.681
1.08	0.0414024	8.43042	31.08	1.57702	107.347
1.09	0.0424416	8.56128	31.08	1.61660	109.013
1.11	0.0434891	8.69213	31.09	1.65650	110.680
1.13	0.0445568	8.82302	31.09	1.69717	112.346
1.14	0.0456302	8.95390	31.09	1.73805	114.013
1.16	0.0467143	9.08475	31.10	1.77935	115.679
1.18	0.0478168	9.21561	31.10	1.82134	117.345
1.19	0.0489310	9.34645	31.10	1.86378	119.011
1.21	0.0500672	9.47731	31.10	1.90706	120.677
1.23	0.0512175	9.60818	31.11	1.95087	122.344
1.24	0.0523912	9.73905	31.11	1.99558	124.010
1.26	0.0535703	9.86990	31.11	2.04049	125.676
1.28	0.0547689	10.0007	31.11	2.08615	127.342
1.29	0.0559780	10.1316	31.12	2.13220	129.009
1.31	0.0571981	10.2625	31.12	2.17867	130.675
1.33	0.0584531	10.3933	31.12	2.22648	132.341
1.34	0.0597158	10.5242	31.13	2.27457	134.008
1.36	0.0610046	10.6551	31.13	2.32366	135.674
1.38	0.0623039	10.7859	31.13	2.37316	137.340
1.39	0.0636290	10.9168	31.13	2.42363	139.006
1.41	0.0649670	11.0477	31.14	2.47459	140.674
1.43	0.0663154	11.1785	31.14	2.52595	142.339
1.44	0.0676900	11.3094	31.14	2.57831	144.006
1.46	0.0690668	11.4402	31.14	2.63075	145.671
1.48	0.0704752	11.5711	31.14	2.68440	147.338
1.49	0.0718950	11.7019	31.15	2.73848	149.004
1.51	0.0733360	11.8328	31.15	2.79337	150.670
1.53	0.0747993	11.9637	31.15	2.84910	152.337
1.54	0.0762719	12.0945	31.15	2.90519	154.003
1.56	0.0777727	12.2254	31.16	2.96236	155.669
1.58	0.0792891	12.3562	31.16	3.02012	157.335
1.59	0.0808344	12.4871	31.16	3.07898	159.002
1.61	0.0823943	12.6179	31.16	3.13840	160.668
1.63	0.0839795	12.7488	31.16	3.19878	162.334
1.64	0.0855954	12.8797	31.17	3.26033	164.001
1.66	0.0872183	13.0105	31.17	3.32214	165.667
1.68	0.0888733	13.1414	31.17	3.38518	167.333
1.69	0.0905413	13.2722	31.17	3.44872	168.999
1.71	0.0922433	13.4031	31.17	3.51355	170.665
1.73	0.0939661	13.5340	31.18	3.57917	172.332
1.74	0.0957145	13.6647	31.18	3.64577	173.997
1.76	0.0974919	13.7956	31.18	3.71347	175.664
1.78	0.0992847	13.9264	31.18	3.78175	177.330
1.79	0.101113	14.0573	31.18	3.85138	178.996
1.81	0.102951	14.1881	31.19	3.92139	180.662
1.83	0.104825	14.3190	31.19	3.99279	182.329
1.84	0.106723	14.4499	31.19	4.06506	183.995
1.86	0.108655	14.5807	31.19	4.13865	185.660
1.88	0.110633	14.7116	31.19	4.21401	187.327
1.89	0.112633	14.8424	31.20	4.29017	188.993
1.91	0.114671	14.9732	31.20	4.36782	190.659
1.93	0.116725	15.1041	31.20	4.44606	192.325
1.94	0.118819	15.2350	31.20	4.52580	193.992
1.96	0.120935	15.3659	31.20	4.60641	195.658
1.98	0.123083	15.4967	31.20	4.68823	197.324
1.99	0.125253	15.6275	31.20	4.77090	198.990
2.01	0.127445	15.7584	31.21	4.85437	200.657
2.03	0.129673	15.8892	31.21	4.93924	202.322
2.04	0.131932	16.0201	31.21	5.02529	203.988
2.06	0.134250	16.1509	31.21	5.11359	205.655
2.08	0.136595	16.2818	31.21	5.20288	207.321
2.09	0.138976	16.4126	31.21	5.29361	208.986
2.11	0.141399	16.5435	31.21	5.38587	210.653
2.13	0.143837	16.6743	31.22	5.47877	212.319
2.14	0.146337	16.8051	31.22	5.57397	213.985
2.16	0.148857	16.9360	31.22	5.66997	215.651
2.18	0.151426	17.0668	31.22	5.76782	217.317
2.19	0.154026	17.1977	31.22	5.86685	218.983
2.21	0.156656	17.3285	31.22	5.96702	220.649
2.23	0.159329	17.4594	31.22	6.06884	222.316
2.24	0.162031	17.5902	31.22	6.17174	223.982
2.26	0.164797	17.7210	31.22	6.27711	225.647
2.28	0.167583	17.8519	31.23	6.38322	227.313
2.29	0.170429	17.9827	31.23	6.49165	228.979
2.31	0.173307	18.1135	31.23	6.60127	230.645
2.33	0.176233	18.2444	31.23	6.71270	232.312
2.34	0.179204	18.3753	31.23	6.82587	233.978
2.36	0.182206	18.5061	31.23	6.94024	235.643
2.38	0.185259	18.6369	31.23	7.05653	237.310
2.39	0.188337	18.7678	31.23	7.17375	238.976
2.41	0.191467	18.8986	31.23	7.29297	240.641
2.43	0.194604	19.0295	31.24	7.41246	242.308
2.44	0.197818	19.1603	31.24	7.53490	243.973
2.46	0.201095	19.2911	31.24	7.65972	245.640
2.48	0.204425	19.4219	31.24	7.78654	247.305
2.49	0.207816	19.5527	31.24	7.91571	248.971
2.51	0.211236	19.6835	31.24	8.04597	250.636
2.53	0.214734	19.8145	31.24	8.17921	252.304
2.54	0.218255	19.9453	31.24	8.31331	253.969
2.56	0.221850	20.0761	31.24	8.45027	255.635
2.58	0.225483	20.2069	31.24	8.58863	257.301
2.59	0.229171	20.3377	31.24	8.72913	258.967
2.61	0.232932	20.4686	31.25	8.87238	260.633
2.63	0.236733	20.5994	31.25	9.01714	262.298
2.64	0.240620	20.7303	31.25	9.16523	263.965
2.66	0.244533	20.8612	31.25	9.31426	265.632
2.68	0.248534	20.9919	31.25	9.46667	267.296
2.69	0.252583	21.1228	31.25	9.62087	268.962
2.71	0.256704	21.2534	31.25	9.77785	270.626
2.73	0.260860	21.3844	31.25	9.93615	272.294
2.74	0.265076	21.5152	31.25	10.0967	273.959
2.76	0.269377	21.6460	31.25	10.2606	275.625
2.78	0.273721	21.7768	31.25	10.4260	277.291
2.79	0.278165	21.9077	31.25	10.5953	278.957
2.81	0.282642	22.0385	31.25	10.7658	280.623
2.83	0.287197	22.1693	31.26	10.9393	282.289
2.84	0.291824	22.3002	31.26	11.1156	283.955
2.86	0.296546	22.4309	31.26	11.2954	285.619
2.88	0.301347	22.5618	31.26	11.4783	287.286
2.89	0.306215	22.6925	31.26	11.6637	288.950
2.91	0.311187	22.8234	31.26	11.8531	290.617
2.93	0.316200	22.9542	31.26	12.0441	292.283
2.94	0.321336	23.0850	31.26	12.2397	293.948
2.96	0.326505	23.2158	31.26	12.4366	295.614
2.98	0.331800	23.3466	31.26	12.6383	297.279
2.99	0.337167	23.4774	31.26	12.8427	298.945
3.01	0.342635	23.6082	31.26	13.0510	300.610
3.03	0.348184	23.7391	31.26	13.2623	302.277
3.04	0.353819	23.8698	31.27	13.4770	303.941
3.06	0.359578	24.0007	31.27	13.6963	305.608
3.08	0.365419	24.1314	31.27	13.9188	307.272
3.09	0.371396	24.2622	31.27	14.1465	308.938
3.11	0.377421	24.3930	31.27	14.3760	310.603
3.13	0.383587	24.5238	31.27	14.6108	312.269
3.14	0.389805	24.6546	31.27	14.8477	313.934
3.16	0.396123	24.7855	31.27	15.0883	315.601
3.18	0.402476	24.9162	31.27	15.3303	317.266
3.19	0.409024	25.0470	31.27	15.5797	318.931
3.21	0.415656	25.1779	31.27	15.8323	320.597
3.23	0.422397	25.3086	31.27	16.0891	322.262
3.24	0.429267	25.4394	31.27	16.3508	323.927
3.26	0.436217	25.5701	31.27	16.6155	325.592
3.28	0.443330	25.7009	31.27	16.8864	327.257
3.29	0.450491	25.8317	31.27	17.1592	328.923
3.31	0.457817	25.9625	31.27	17.4382	330.588
3.33	0.465200	26.0933	31.27	17.7195	332.253
3.34	0.472731	26.2241	31.27	18.0063	333.919
3.36	0.480333	26.3549	31.27	18.2959	335.585
3.38	0.488070	26.4856	31.27	18.5906	337.249
3.39	0.495902	26.6164	31.28	18.8889	338.915
3.41	0.503818	26.7472	31.28	19.1904	340.580
3.43	0.511792	26.8781	31.28	19.4942	342.247
3.44	0.519775	27.0088	31.28	19.7982	343.912
3.46	0.526015	27.1404	31.28	20.0359	345.587
3.48	0.526435	27.2718	31.28	20.0519	347.260
3.49	0.526434	27.4024	31.28	20.0519	348.922
3.51	0.526434	27.5125	31.28	20.0519	350.325
3.53	0.526434	27.5503	31.28	20.0518	350.806
3.54	0.526434	27.5773	31.28	20.0518	351.150
3.56	0.526433	27.6018	31.28	20.0518	351.461
3.58	0.526433	27.6268	31.28	20.0518	351.780
3.59	0.526433	27.6496	31.28	20.0518	352.070
3.61	0.526433	27.6683	31.28	20.0518	352.309
3.63	0.526433	27.6852	31.28	20.0518	352.523
3.64	0.526433	27.7006	31.28	20.0518	352.720
3.66	0.526433	27.7151	31.28	20.0518	352.905
3.68	0.526433	27.7288	31.28	20.0518	353.079
3.69	0.526433	27.7416	31.28	20.0518	353.242
3.71	0.526433	27.7538	31.28	20.0518	353.397
3.73	0.526433	27.7662	31.28	20.0518	353.555
3.74	0.526433	27.7776	31.28	20.0518	353.701
3.76	0.526433	27.7883	31.28	20.0518	353.837
3.78	0.526433	27.7985	31.29	20.0518	353.967
3.79	0.526433	27.8089	31.29	20.0518	354.100
3.81	0.526433	27.8184	31.28	20.0518	354.220
3.83	0.526433	27.8279	31.29	20.0518	354.341
3.84	0.526433	27.8365	31.29	20.0518	354.450
3.86	0.526433	27.8448	31.29	20.0518	354.556
3.88	0.526433	27.8529	31.29	20.0518	354.659
3.89	0.526433	27.8609	31.29	20.0518	354.761
3.91	0.526433	27.8688	31.29	20.0518	354.862
3.93	0.526433	27.8775	31.29	20.0518	354.972
3.94	0.526433	27.8852	31.29	20.0518	355.071
3.96	0.526433	27.8934	31.29	20.0518	355.175
3.98	0.526432	27.9031	31.29	20.0518	355.299
3.99	0.526432	27.9117	31.29	20.0518	355.408
4.01	0.526432	27.9192	31.29	20.0518	355.503
4.03	0.526432	27.9261	31.29	20.0518	355.592
4.04	0.526432	27.9326	31.29	20.0518	355.674
4.06	0.526432	27.9398	31.29	20.0518	355.765
4.08	0.526432	27.9482	31.29	20.0518	355.873
4.09	0.526432	27.9582	31.29	20.0518	356.001
4.11	0.526432	27.9660	31.29	20.0518	356.100
4.13	0.526432	27.9739	31.29	20.0518	356.200
4.14	0.526432	27.9826	31.29	20.0518	356.310
4.16	0.526432	27.9909	31.29	20.0518	356.417
4.18	0.526432	27.9974	31.29	20.0518	356.500
4.19	0.526432	28.0137	31.29	20.0518	356.706
4.21	0.526432	28.0402	31.29	20.0518	357.045
4.23	0.526432	28.0483	31.29	20.0518	357.147
4.24	0.526432	28.0553	31.29	20.0518	357.237
4.26	0.526432	28.0612	31.29	20.0518	357.312
4.28	0.526432	28.0677	31.29	20.0518	357.395
4.29	0.526432	28.0758	31.30	20.0518	357.497
4.31	0.526432	28.0841	31.30	20.0518	357.603
4.33	0.526432	28.0897	31.29	20.0518	357.674
4.34	0.526432	28.0954	31.30	20.0518	357.747
4.36	0.526432	28.1016	31.30	20.0518	357.826
4.38	0.526432	28.1069	31.29	20.0518	357.894
4.39	0.526432	28.1128	31.30	20.0518	357.969
4.41	0.526432	28.1198	31.30	20.0518	358.058
4.43	0.526432	28.1256	31.30	20.0518	358.132
4.44	0.526432	28.1312	31.30	20.0518	358.203
4.46	0.526432	28.1365	31.30	20.0518	358.271
4.48	0.526432	28.1412	31.30	20.0518	358.331
4.49	0.526432	28.1462	31.30	20.0518	358.394
4.51	0.526432	28.1509	31.30	20.0518	358.454
4.53	0.526432	28.1556	31.30	20.0518	358.514
4.54	0.526431	28.1606	31.30	20.0518	358.578
4.56	0.526431	28.1650	31.30	20.0518	358.634
4.58	0.526431	28.1695	31.30	20.0518	358.691
4.59	0.526431	28.1739	31.30	20.0518	358.746
4.61	0.526431	28.1784	31.30	20.0518	358.804
4.63	0.526431	28.1827	31.30	20.0518	358.859
4.64	0.526431	28.1872	31.30	20.0518	358.916
4.66	0.526431	28.1910	31.30	20.0518	358.964
4.68	0.526431	28.1950	31.30	20.0518	359.016
4.69	0.526431	28.1990	31.30	20.0518	359.067
4.71	0.526431	28.2025	31.30	20.0518	359.111
4.73	0.526431	28.2065	31.30	20.0518	359.162
4.74	0.526431	28.2101	31.30	20.0518	359.207
4.76	0.526431	28.2136	31.30	20.0518	359.252
4.78	0.526431	28.2167	31.30	20.0518	359.292
4.79	0.526431	28.2204	31.30	20.0518	359.339
4.81	0.526431	28.2239	31.30	20.0518	359.384
4.83	0.526431	28.2269	31.30	20.0518	359.421
4.84	0.526431	28.2299	31.30	20.0518	359.460
4.86	0.526431	28.2331	31.30	20.0518	359.500
4.88	0.526431	28.2362	31.30	20.0518	359.540
4.89	0.526431	28.2389	31.30	20.0518	359.575
4.91	0.526431	28.2422	31.30	20.0518	359.617
4.93	0.526431	28.2454	31.30	20.0518	359.657
4.94	0.526431	28.2480	31.30	20.0518	359.691
4.96	0.526431	28.2508	31.30	20.0518	359.726
4.98	0.526431	28.2541	31.30	20.0518	359.767
4.99	0.526431	28.2565	31.30	20.0518	359.799
5.01	0.526431	28.2594	31.30	20.0518	359.836
5.03	0.526431	28.2625	31.30	20.0518	359.875
5.04	0.526431	28.2647	31.30	20.0518	359.903
5.06	0.526431	28.2678	31.30	20.0518	359.943
5.08	0.526431	28.2709	31.30	20.0518	359.981
5.09	0.526431	28.2730	31.30	20.0518	360.009
5.11	0.526431	28.2763	31.30	20.0518	360.050
5.13	0.526431	28.2785	31.30	20.0518	360.079
5.14	0.526431	28.2808	31.30	20.0518	360.108
5.16	0.526431	28.2838	31.30	20.0518	360.147
5.18	0.526431	28.2857	31.30	20.0518	360.170
5.19	0.526431	28.2888	31.30	20.0518	360.210
5.21	0.526431	28.2906	31.30	20.0518	360.232
5.23	0.526431	28.2933	31.30	20.0518	360.268
5.24	0.526431	28.2954	31.30	20.0518	360.294
5.26	0.526431	28.2975	31.31	20.0518	360.321
5.28	0.526431	28.3000	31.31	20.0518	360.352
5.29	0.526431	28.3026	31.31	20.0518	360.385
5.31	0.526431	28.3061	31.31	20.0518	360.430
5.33	0.526431	28.3319	31.31	20.0517	360.758
5.34	0.526431	28.3429	31.31	20.0517	360.898
5.36	0.526431	28.3460	31.31	20.0517	360.938
5.38	0.526431	28.3489	31.31	20.0517	360.975
5.39	0.526431	28.3518	31.31	20.0517	361.013
5.41	0.526431	28.3543	31.31	20.0517	361.043
5.43	0.526431	28.3574	31.31	20.0517	361.084
5.44	0.526431	28.3599	31.31	20.0517	361.116
5.46	0.526431	28.3624	31.31	20.0517	361.147
5.48	0.526431	28.3653	31.31	20.0517	361.184
5.49	0.526431	28.3672	31.31	20.0517	361.208
5.51	0.526431	28.3702	31.31	20.0517	361.246
5.53	0.526431	28.3720	31.31	20.0517	361.270
5.54	0.526431	28.3748	31.31	20.0517	361.304
5.56	0.526431	28.3772	31.31	20.0517	361.335
5.58	0.526431	28.3792	31.31	20.0517	361.360
5.59	0.526431	28.3817	31.31	20.0517	361.393
5.61	0.526431	28.3837	31.31	20.0517	361.418
5.63	0.526431	28.3865	31.31	20.0517	361.453
5.64	0.526431	28.3878	31.31	20.0517	361.471
5.66	0.526431	28.3911	31.31	20.0517	361.513
5.68	0.526431	28.3922	31.31	20.0517	361.527
5.69	0.526431	28.3952	31.31	20.0517	361.565
5.71	0.526431	28.3968	31.31	20.0517	361.585
5.73	0.526431	28.3998	31.31	20.0517	361.624
5.74	0.526431	28.4012	31.31	20.0517	361.641
5.76	0.526431	28.4040	31.31	20.0517	361.677
5.78	0.526431	28.4054	31.31	20.0517	361.694
5.79	0.526431	28.4082	31.31	20.0517	361.730
5.81	0.526431	28.4095	31.31	20.0517	361.746
5.83	0.526431	28.4122	31.31	20.0517	361.781
5.84	0.526431	28.4136	31.31	20.0517	361.799
5.86	0.526431	28.4161	31.31	20.0517	361.831
5.88	0.526431	28.4177	31.31	20.0517	361.852
5.89	0.526431	28.4200	31.31	20.0517	361.880
5.91	0.526431	28.4219	31.31	20.0517	361.904
5.93	0.526431	28.4238	31.31	20.0517	361.929
5.94	0.526431	28.4262	31.31	20.0517	361.959
5.96	0.526431	28.4276	31.31	20.0517	361.977
5.98	0.526431	28.4306	31.31	20.0517	362.015
5.99	0.526431	28.4331	31.31	20.0517	362.047
6.01	0.526431	28.4349	31.31	20.0517	362.070
6.03	0.526431	28.4368	31.31	20.0517	362.095
6.04	0.526431	28.4390	31.31	20.0517	362.122
6.06	0.526431	28.4405	31.31	20.0517	362.142
6.08	0.526431	28.4426	31.31	20.0517	362.168
6.09	0.526431	28.4443	31.31	20.0517	362.190
6.11	0.526431	28.4508	31.31	20.0517	362.273

